File: data/_xrf.txt
Sample	X	Y	d1 [Âµm]	Cu 1 [%]	In 1 [%]	Se 1 [%]	Mo 2 [Âµm]	Fe 3 [%]	Cr 3 [%]
1.0 57.17 33.9 1.78 21.8 29.6 48.6 0.301 81.6 18.4
1.0 66.146 33.9 1.84 21.6 29.5 48.9 0.297 81.7 18.3
1.0 75.124 33.9 1.87 21.7 29.5 48.8 0.298 81.6 18.4
1.0 84.1 33.9 1.98 21.3 30.6 48.1 0.318 81.6 18.4
1.0 93.078 33.9 1.99 21.7 29.7 48.6 0.301 81.5 18.5
1.0 102.054 33.9 2.11 22.1 29.2 48.7 0.3 81.7 18.3
1.0 111.032 33.9 2.26 22.0 29.3 48.7 0.307 81.7 18.3
1.0 120.008 33.9 2.24 22.1 29.5 48.4 0.302 81.5 18.5
1.0 128.986 33.9 2.33 22.0 29.3 48.8 0.301 81.6 18.4
1.0 137.962 33.9 2.4 22.2 29.4 48.5 0.304 81.6 18.4
1.0 146.938 33.9 2.4 22.3 29.2 48.5 0.303 81.6 18.4
1.0 155.914 33.9 2.4 22.1 29.4 48.5 0.302 81.6 18.4
1.0 164.892 33.9 2.39 22.3 29.2 48.5 0.306 81.5 18.5
1.0 173.868 33.9 2.39 22.1 29.2 48.6 0.301 81.6 18.4
1.0 63.154 39.964 1.84 21.4 29.8 48.9 0.293 81.7 18.3
1.0 72.132 39.964 1.87 21.3 29.5 49.2 0.292 81.6 18.4
1.0 81.108 39.964 1.9 21.8 29.7 48.5 0.298 81.6 18.4
1.0 90.084 39.964 2.01 21.5 30.1 48.4 0.308 81.6 18.4
1.0 99.062 39.964 2.05 21.9 29.3 48.8 0.293 81.7 18.3
1.0 108.04 39.964 2.21 22.0 29.6 48.5 0.304 81.6 18.4
1.0 117.016 39.964 2.32 21.8 30.0 48.2 0.305 81.5 18.5
1.0 125.992 39.964 2.28 22.1 29.0 48.8 0.287 81.6 18.4
1.0 134.97 39.964 2.37 21.9 29.5 48.6 0.299 81.6 18.4
1.0 143.948 39.964 2.39 22.1 29.2 48.7 0.299 81.7 18.3
1.0 152.922 39.964 2.41 22.1 29.3 48.5 0.293 81.8 18.2
1.0 161.9 39.964 2.38 22.3 29.0 48.6 0.297 81.6 18.4
1.0 170.876 39.964 2.39 21.9 29.6 48.5 0.294 81.6 18.4
1.0 60.162 46.028 1.81 21.5 29.7 48.9 0.293 81.6 18.4
1.0 69.14 46.028 1.87 21.7 29.4 48.9 0.296 81.6 18.4
1.0 78.116 46.028 1.9 21.6 29.5 48.9 0.286 81.6 18.4
1.0 87.092 46.028 2.02 21.3 30.8 47.9 0.317 81.6 18.4
1.0 96.072 46.028 2.02 21.9 29.2 48.9 0.292 81.6 18.4
1.0 105.046 46.028 2.17 22.0 29.4 48.6 0.302 81.6 18.4
1.0 114.022 46.028 2.26 22.0 29.5 48.5 0.299 81.6 18.4
1.0 123.002 46.028 2.34 22.0 29.5 48.5 0.303 81.6 18.4
1.0 131.976 46.028 2.37 22.0 29.5 48.5 0.308 81.8 18.2
1.0 140.954 46.028 2.39 22.2 29.4 48.4 0.299 81.6 18.4
1.0 149.93 46.028 2.41 22.2 29.5 48.4 0.298 81.6 18.4
1.0 158.906 46.028 2.42 22.2 29.3 48.5 0.299 81.7 18.3
1.0 167.884 46.028 2.39 22.0 29.5 48.5 0.302 81.6 18.4
1.0 57.17 52.092 1.8 21.4 29.8 48.8 0.292 81.6 18.4
1.0 69.14 52.092 1.86 21.6 29.5 48.9 0.293 81.6 18.4
1.0 78.116 52.092 1.91 21.7 29.5 48.8 0.298 81.7 18.3
1.0 87.092 52.092 2.05 21.2 31.0 47.8 0.32 81.5 18.5
1.0 96.07 52.092 1.98 21.9 29.2 48.8 0.287 81.6 18.4
1.0 105.046 52.092 2.14 21.9 29.3 48.8 0.298 81.7 18.3
1.0 114.022 52.092 2.25 21.8 29.6 48.6 0.295 81.6 18.4
1.0 123.0 52.092 2.31 22.0 29.3 48.7 0.301 81.6 18.4
1.0 131.976 52.092 2.36 22.0 29.5 48.4 0.306 81.6 18.4
1.0 140.954 52.092 2.3 22.4 29.0 48.6 0.288 81.6 18.4
1.0 149.93 52.092 2.41 22.1 29.4 48.4 0.3 81.7 18.3
1.0 158.908 52.092 2.41 22.4 29.1 48.5 0.302 81.7 18.3
1.0 167.886 52.092 2.41 22.1 29.5 48.4 0.294 81.6 18.4
1.0 57.17 58.158 1.8 21.5 29.6 48.9 0.293 81.6 18.4
1.0 66.146 58.158 1.86 21.5 29.6 48.9 0.296 81.6 18.4
1.0 75.124 58.158 1.91 21.4 30.2 48.3 0.295 81.6 18.4
1.0 84.1 58.158 1.97 21.5 30.1 48.4 0.305 81.7 18.3
1.0 93.078 58.158 2.03 21.7 29.8 48.5 0.301 81.6 18.4
1.0 102.054 58.158 2.2 21.8 29.6 48.6 0.299 81.7 18.3
1.0 111.03 58.158 2.28 21.8 29.6 48.6 0.309 81.7 18.3
1.0 120.01 58.158 2.34 21.8 29.9 48.3 0.306 81.7 18.3
1.0 128.984 58.158 2.36 21.9 29.5 48.5 0.302 81.6 18.4
1.0 137.96 58.158 2.38 21.9 29.3 48.7 0.295 81.6 18.4
1.0 146.938 58.158 2.4 22.1 29.3 48.5 0.296 81.6 18.4
1.0 155.916 58.158 2.4 22.1 29.3 48.5 0.297 81.6 18.4
1.0 164.892 58.158 2.38 22.2 29.0 48.7 0.296 81.6 18.4
1.0 173.868 58.158 2.36 22.3 28.7 49.0 0.292 81.7 18.3
2.0 57.938 89.906 2.33 19.4 31.1 49.6 0.308 81.7 18.3
2.0 66.882 89.906 2.28 19.5 30.8 49.7 0.297 81.7 18.3
2.0 75.824 89.906 2.21 19.5 30.9 49.6 0.294 81.6 18.4
2.0 84.766 89.906 2.12 19.6 30.8 49.6 0.3 81.7 18.3
2.0 93.708 89.906 1.95 19.9 30.2 49.9 0.297 81.6 18.4
2.0 102.648 89.906 1.89 19.9 29.8 50.4 0.29 81.6 18.4
2.0 111.59 89.906 1.84 20.0 29.8 50.1 0.284 81.6 18.4
2.0 120.534 89.906 1.74 20.1 29.7 50.2 0.283 81.7 18.3
2.0 129.474 89.906 1.71 20.0 29.8 50.2 0.277 81.6 18.4
2.0 138.418 89.906 1.57 20.3 28.7 51.1 0.257 81.6 18.4
2.0 147.358 89.906 1.43 20.5 28.0 51.5 0.236 81.7 18.3
2.0 156.3 89.906 1.31 21.4 27.3 51.3 0.222 81.7 18.3
2.0 165.242 89.906 1.15 22.3 26.7 51.1 0.213 81.6 18.4
2.0 57.938 96.11 2.33 19.4 31.1 49.5 0.305 81.7 18.3
2.0 66.88 96.11 2.28 19.4 31.0 49.6 0.297 81.7 18.3
2.0 75.824 96.11 2.2 19.5 30.8 49.6 0.304 81.7 18.3
2.0 84.764 96.11 2.1 19.6 30.7 49.7 0.299 81.7 18.3
2.0 93.708 96.11 1.98 19.7 30.3 50.0 0.293 81.6 18.4
2.0 102.648 96.11 1.94 19.7 30.3 50.0 0.29 81.7 18.3
2.0 111.59 96.11 1.87 19.9 29.9 50.2 0.28 81.8 18.2
2.0 120.532 96.11 1.77 20.2 29.5 50.4 0.279 81.6 18.4
2.0 129.476 96.11 1.75 19.8 30.2 50.0 0.278 81.7 18.3
2.0 138.416 96.11 1.61 20.3 28.8 50.9 0.252 81.7 18.3
2.0 147.36 96.11 1.49 20.7 28.1 51.2 0.235 81.7 18.3
2.0 156.3 96.11 1.4 21.5 27.5 51.0 0.215 81.8 18.2
2.0 165.242 96.11 1.25 22.0 26.7 51.3 0.208 81.7 18.3
2.0 57.938 102.314 2.32 19.3 31.0 49.7 0.302 81.6 18.4
2.0 66.88 102.314 2.26 19.5 30.7 49.9 0.297 81.6 18.4
2.0 75.824 102.314 2.2 19.6 30.9 49.5 0.3 81.6 18.4
2.0 84.766 102.314 2.1 19.6 30.8 49.6 0.296 81.7 18.3
2.0 93.706 102.314 2.01 19.6 30.6 49.8 0.292 81.7 18.3
2.0 102.648 102.314 1.94 19.9 30.5 49.6 0.293 81.6 18.4
2.0 111.59 102.314 1.88 20.0 30.1 50.0 0.286 81.6 18.4
2.0 120.534 102.314 1.82 20.0 29.9 50.1 0.281 81.7 18.3
2.0 129.476 102.314 1.76 19.8 30.2 49.9 0.285 81.7 18.3
2.0 138.416 102.314 1.62 20.0 29.2 50.8 0.259 81.7 18.3
2.0 147.358 102.314 1.52 20.5 28.6 50.9 0.236 81.7 18.3
2.0 156.3 102.314 1.39 21.5 27.3 51.1 0.213 81.8 18.2
2.0 165.242 102.314 1.26 22.0 26.7 51.3 0.207 81.7 18.3
2.0 57.938 108.516 2.32 19.4 31.0 49.6 0.303 81.6 18.4
2.0 66.88 108.516 2.27 19.5 30.7 49.7 0.301 81.7 18.3
2.0 75.824 108.516 2.2 19.4 30.9 49.7 0.294 81.6 18.4
2.0 84.764 108.516 2.1 19.6 30.8 49.7 0.298 81.7 18.3
2.0 93.706 108.516 2.01 19.7 30.5 49.8 0.3 81.7 18.3
2.0 102.648 108.516 1.95 19.6 30.5 49.9 0.295 81.7 18.3
2.0 111.59 108.516 1.89 19.7 30.2 50.1 0.289 81.7 18.3
2.0 120.532 108.516 1.82 20.0 30.2 49.8 0.275 81.7 18.3
2.0 135.436 108.516 1.71 19.7 30.4 49.9 0.278 81.6 18.4
2.0 144.378 108.516 1.52 20.3 28.7 51.0 0.248 81.7 18.3
2.0 153.32 108.516 1.43 21.2 27.7 51.1 0.223 81.7 18.3
2.0 162.264 108.516 1.31 21.7 26.9 51.5 0.205 81.7 18.3
2.0 54.956 114.72 2.33 19.3 31.0 49.7 0.312 81.5 18.5
2.0 63.898 114.72 2.29 19.3 30.9 49.7 0.297 81.7 18.3
2.0 72.84 114.72 2.24 19.5 30.6 49.9 0.299 81.7 18.3
2.0 81.782 114.72 2.16 19.6 30.8 49.7 0.304 81.7 18.3
2.0 90.724 114.72 2.06 19.5 30.8 49.7 0.297 81.6 18.4
2.0 99.666 114.72 1.97 19.6 30.5 49.9 0.291 81.7 18.3
2.0 108.61 114.72 1.91 19.8 30.5 49.7 0.294 81.6 18.4
2.0 117.552 114.72 1.85 19.8 30.3 49.9 0.286 81.8 18.2
2.0 126.494 114.72 1.79 19.5 30.6 49.8 0.285 81.7 18.3
2.0 135.436 114.72 1.71 19.5 30.7 49.8 0.286 81.6 18.4
2.0 144.378 114.72 1.55 20.5 28.5 50.9 0.249 81.7 18.3
2.0 153.32 114.72 1.43 21.2 27.6 51.2 0.224 81.7 18.3
2.0 162.264 114.72 1.31 21.7 27.4 51.0 0.214 81.8 18.2
3.0 63.934 161.496 1.74 19.3 30.1 50.6 0.269 81.6 18.4
3.0 72.902 161.496 1.78 19.4 30.3 50.4 0.29 81.6 18.4
3.0 81.874 161.496 1.77 19.3 30.0 50.6 0.286 81.5 18.5
3.0 90.844 161.496 1.94 19.3 30.4 50.3 0.293 81.6 18.4
3.0 99.816 161.496 1.98 19.4 30.5 50.2 0.29 81.6 18.4
3.0 108.784 161.496 2.03 19.4 30.5 50.1 0.296 81.6 18.4
3.0 117.756 161.496 2.24 19.4 30.7 49.9 0.295 81.7 18.3
3.0 126.726 161.496 2.33 19.5 31.0 49.5 0.306 81.7 18.3
3.0 135.696 161.496 2.35 19.5 30.8 49.8 0.309 81.7 18.3
3.0 144.666 161.496 2.35 19.5 30.9 49.6 0.313 81.5 18.5
3.0 153.638 161.496 2.37 19.5 30.6 49.9 0.314 81.7 18.3
3.0 162.608 161.496 2.37 19.5 30.7 49.8 0.307 81.7 18.3
3.0 171.58 161.496 2.34 19.4 30.7 49.9 0.294 81.7 18.3
3.0 66.922 167.542 1.83 19.4 30.6 50.1 0.294 81.7 18.3
3.0 75.892 167.542 1.87 19.3 30.5 50.3 0.291 81.6 18.4
3.0 84.864 167.542 1.86 19.3 30.1 50.6 0.291 81.6 18.4
3.0 93.834 167.542 1.92 19.4 30.2 50.4 0.296 81.6 18.4
3.0 102.804 167.542 1.97 19.4 30.3 50.3 0.296 81.6 18.4
3.0 111.774 167.542 2.18 19.4 30.7 49.9 0.296 81.7 18.3
3.0 120.746 167.542 2.24 19.4 30.6 50.0 0.304 81.7 18.3
3.0 129.718 167.542 2.31 19.4 30.7 49.9 0.31 81.6 18.4
3.0 138.686 167.542 2.36 19.6 31.0 49.5 0.316 81.7 18.3
3.0 147.656 167.542 2.36 19.5 30.7 49.7 0.305 81.6 18.4
3.0 156.63 167.542 2.37 19.5 30.8 49.7 0.303 81.6 18.4
3.0 165.598 167.542 2.36 19.4 30.8 49.8 0.299 81.7 18.3
3.0 60.942 173.588 1.68 19.3 30.3 50.3 0.286 81.6 18.4
3.0 69.914 173.588 1.83 19.3 30.5 50.2 0.283 81.6 18.4
3.0 78.882 173.588 1.87 19.2 30.3 50.5 0.294 81.6 18.4
3.0 87.854 173.588 1.92 19.4 30.6 49.9 0.288 81.7 18.3
3.0 96.824 173.588 1.94 19.4 30.5 50.1 0.289 81.7 18.3
3.0 105.794 173.588 2.05 19.5 30.7 49.8 0.301 81.6 18.4
3.0 114.766 173.588 2.19 19.5 30.6 49.8 0.299 81.7 18.3
3.0 123.736 173.588 2.26 19.5 30.7 49.8 0.31 81.6 18.4
3.0 132.706 173.588 2.33 19.3 30.8 49.9 0.311 81.6 18.4
3.0 141.676 173.588 2.36 19.4 30.9 49.7 0.313 81.7 18.3
3.0 150.646 173.588 2.34 19.5 30.6 49.9 0.305 81.7 18.3
3.0 159.618 173.588 2.36 19.5 30.6 49.9 0.307 81.7 18.3
3.0 168.588 173.588 2.36 19.4 30.6 50.0 0.306 81.7 18.3
3.0 63.934 179.634 1.71 19.4 30.0 50.7 0.276 81.5 18.5
3.0 72.902 179.634 1.76 19.3 30.0 50.7 0.282 81.6 18.4
3.0 81.874 179.634 1.84 19.4 30.6 50.0 0.296 81.5 18.5
3.0 90.844 179.634 1.89 19.3 30.1 50.5 0.292 81.5 18.5
3.0 99.814 179.634 1.97 19.3 30.5 50.1 0.294 81.6 18.4
3.0 108.784 179.634 1.9 19.5 30.0 50.5 0.28 81.5 18.5
3.0 117.756 179.634 2.18 19.4 30.4 50.2 0.29 81.6 18.4
3.0 126.726 179.634 2.31 19.5 30.7 49.9 0.306 81.7 18.3
3.0 135.698 179.634 2.33 19.5 30.6 49.8 0.306 81.7 18.3
3.0 144.666 179.634 2.37 19.3 31.0 49.7 0.317 81.7 18.3
3.0 153.64 179.634 2.37 19.5 30.6 49.9 0.308 81.6 18.4
3.0 162.608 179.634 2.36 19.5 30.6 49.9 0.301 81.6 18.4
3.0 171.578 179.634 2.34 19.4 30.8 49.8 0.294 81.6 18.4
3.0 66.924 185.68 1.82 19.3 30.5 50.2 0.29 81.7 18.3
3.0 75.894 185.68 1.65 19.4 29.6 51.0 0.276 81.5 18.5
3.0 84.864 185.68 1.73 19.7 29.3 51.0 0.263 81.5 18.5
3.0 93.834 185.68 1.88 19.4 30.3 50.3 0.283 81.6 18.4
3.0 102.806 185.68 1.91 19.4 30.2 50.4 0.292 81.5 18.5
3.0 111.774 185.68 2.16 19.4 30.6 49.9 0.3 81.7 18.3
3.0 120.746 185.68 2.22 19.4 30.6 50.1 0.297 81.6 18.4
3.0 129.716 185.68 2.3 19.5 30.8 49.8 0.308 81.6 18.4
3.0 138.688 185.68 2.35 19.5 30.7 49.8 0.312 81.7 18.3
3.0 147.656 185.68 2.34 19.5 30.7 49.8 0.307 81.6 18.4
3.0 156.628 185.68 2.33 19.4 30.6 50.0 0.308 81.6 18.4
3.0 165.598 185.68 2.36 19.4 30.7 49.9 0.298 81.7 18.3
4.0 45.734 119.668 2.16 18.8 32.4 48.9 0.36 81.4 18.6
4.0 54.766 119.668 2.03 19.4 30.7 49.9 0.329 81.7 18.3
4.0 63.798 119.668 2.06 19.4 30.7 49.9 0.326 81.8 18.2
4.0 72.83 119.668 2.1 19.5 30.8 49.8 0.33 81.7 18.3
4.0 81.864 119.668 2.05 19.5 30.7 49.9 0.33 81.8 18.2
4.0 90.896 119.668 2.01 19.3 30.6 50.1 0.323 81.7 18.3
4.0 99.93 119.668 1.98 19.4 30.6 49.9 0.33 81.8 18.2
4.0 108.962 119.668 1.96 19.4 30.6 49.9 0.325 81.9 18.1
4.0 117.994 119.668 1.92 19.5 30.7 49.8 0.327 81.7 18.3
4.0 127.028 119.668 1.89 19.3 31.0 49.7 0.321 81.6 18.4
4.0 136.06 119.668 1.86 19.3 31.1 49.6 0.321 81.7 18.3
4.0 145.094 119.668 1.83 19.5 30.9 49.6 0.317 81.7 18.3
4.0 154.126 119.668 1.77 19.6 30.7 49.8 0.318 81.6 18.4
4.0 45.732 125.758 2.22 18.4 34.1 47.5 0.372 80.9 19.1
4.0 54.764 125.758 2.03 19.4 30.6 50.0 0.322 81.7 18.3
4.0 63.798 125.758 2.06 19.4 30.8 49.8 0.325 81.7 18.3
4.0 72.83 125.758 2.08 19.5 30.6 49.9 0.33 81.7 18.3
4.0 81.864 125.758 2.06 19.5 30.6 49.8 0.326 81.8 18.2
4.0 90.896 125.758 2.01 19.4 30.6 50.0 0.326 81.7 18.3
4.0 99.93 125.758 1.98 19.4 30.6 50.0 0.326 81.7 18.3
4.0 108.962 125.758 1.95 19.5 30.7 49.8 0.321 81.7 18.3
4.0 117.994 125.758 1.92 19.5 30.6 49.8 0.322 81.7 18.3
4.0 127.028 125.758 1.89 19.3 31.1 49.6 0.328 81.7 18.3
4.0 136.06 125.758 1.86 19.3 30.9 49.8 0.323 81.7 18.3
4.0 145.094 125.758 1.84 19.4 31.3 49.3 0.325 81.7 18.3
4.0 154.128 125.758 1.77 19.6 30.8 49.6 0.319 81.7 18.3
4.0 45.732 131.842 2.3 17.7 35.5 46.8 0.393 80.5 19.5
4.0 54.766 131.842 2.05 19.5 30.6 49.9 0.328 81.7 18.3
4.0 63.798 131.842 2.08 19.5 30.7 49.8 0.325 81.8 18.2
4.0 72.83 131.842 2.09 19.6 30.9 49.5 0.326 81.8 18.2
4.0 81.864 131.842 2.05 19.5 30.7 49.8 0.328 81.7 18.3
4.0 90.896 131.842 2.01 19.5 30.6 49.9 0.327 81.7 18.3
4.0 99.93 131.842 1.99 19.4 30.7 49.9 0.323 81.8 18.2
4.0 108.964 131.842 1.96 19.3 30.9 49.8 0.329 81.7 18.3
4.0 117.994 131.842 1.92 19.5 30.6 49.9 0.327 81.7 18.3
4.0 127.028 131.842 1.89 19.3 31.2 49.5 0.323 81.7 18.3
4.0 136.06 131.842 1.86 19.3 31.1 49.6 0.325 81.7 18.3
4.0 145.094 131.842 1.83 19.4 31.2 49.4 0.318 81.7 18.3
4.0 154.126 131.842 1.78 19.8 30.7 49.5 0.31 81.6 18.4
4.0 45.732 137.932 2.37 17.6 36.3 46.0 0.41 80.4 19.6
4.0 54.766 137.93 2.06 19.4 30.9 49.7 0.329 81.8 18.2
4.0 63.798 137.93 2.08 19.5 30.7 49.8 0.327 81.7 18.3
4.0 72.83 137.93 2.08 19.4 30.9 49.7 0.335 81.8 18.2
4.0 81.864 137.93 2.05 19.5 30.6 49.8 0.326 81.7 18.3
4.0 90.896 137.93 2.02 19.5 30.6 49.9 0.328 81.7 18.3
4.0 99.93 137.93 1.99 19.5 31.0 49.5 0.324 81.7 18.3
4.0 108.964 137.93 1.96 19.5 30.8 49.7 0.321 81.7 18.3
4.0 117.994 137.93 1.92 19.5 30.6 49.8 0.327 81.8 18.2
4.0 127.028 137.93 1.9 19.4 31.0 49.6 0.331 81.6 18.4
4.0 136.06 137.93 1.87 19.3 31.2 49.5 0.322 81.8 18.2
4.0 145.094 137.93 1.83 19.6 30.9 49.5 0.328 81.7 18.3
4.0 154.126 137.93 1.76 20.0 30.4 49.6 0.32 81.6 18.4
4.0 45.732 144.018 2.43 17.5 36.9 45.5 0.424 80.3 19.7
4.0 54.764 144.018 2.07 19.5 30.6 49.8 0.33 81.8 18.2
4.0 63.798 144.018 2.09 19.3 30.5 50.1 0.327 81.8 18.2
4.0 72.83 144.018 2.08 19.5 30.9 49.7 0.332 81.6 18.4
4.0 81.866 144.018 2.08 19.5 30.6 49.9 0.328 81.8 18.2
4.0 90.896 144.018 2.04 19.4 30.6 50.0 0.321 81.8 18.2
4.0 99.93 144.018 2.01 19.5 30.7 49.8 0.327 81.8 18.2
4.0 108.962 144.018 1.97 19.6 30.7 49.7 0.33 81.7 18.3
4.0 117.994 144.018 1.93 19.4 31.0 49.6 0.329 81.7 18.3
4.0 127.03 144.018 1.91 19.5 31.0 49.5 0.327 81.7 18.3
4.0 136.062 144.018 1.87 19.3 31.3 49.4 0.331 81.6 18.4
4.0 145.094 144.018 1.84 19.4 31.2 49.4 0.33 81.7 18.3
4.0 154.126 144.018 1.78 19.8 30.8 49.4 0.319 81.7 18.3
6.0 40.576 54.658 1.46 17.9 36.7 45.4 0.403 80.2 19.8
6.0 49.518 54.658 1.28 20.9 27.8 51.3 0.264 81.6 18.4
6.0 58.46 54.658 1.41 20.8 28.0 51.2 0.264 81.6 18.4
6.0 67.402 54.658 1.49 20.5 28.1 51.4 0.271 81.7 18.3
6.0 76.346 54.658 1.57 20.3 28.1 51.6 0.274 81.6 18.4
6.0 85.286 54.658 1.71 20.1 29.1 50.8 0.288 81.7 18.3
6.0 94.23 54.658 1.76 20.3 28.8 50.9 0.28 81.6 18.4
6.0 103.17 54.658 1.83 20.1 29.3 50.6 0.28 81.6 18.4
6.0 112.112 54.658 1.91 19.8 29.9 50.3 0.298 81.7 18.3
6.0 121.052 54.658 1.87 20.4 29.1 50.5 0.283 81.5 18.5
6.0 129.994 54.658 2.02 20.1 29.6 50.3 0.294 81.6 18.4
6.0 138.936 54.658 2.16 20.0 29.9 50.0 0.294 81.7 18.3
6.0 147.88 54.658 2.28 19.9 30.3 49.8 0.303 81.7 18.3
6.0 156.82 54.658 2.38 19.8 30.4 49.8 0.309 81.7 18.3
6.0 165.762 54.658 2.35 19.9 30.4 49.7 0.303 81.6 18.4
6.0 174.704 54.658 2.41 19.9 30.3 49.8 0.311 81.7 18.3
6.0 183.646 54.658 2.39 19.9 30.4 49.7 0.307 81.7 18.3
6.0 46.538 60.724 1.35 20.3 29.3 50.4 0.286 81.6 18.4
6.0 55.482 60.724 1.35 20.8 27.7 51.5 0.258 81.6 18.4
6.0 64.42 60.724 1.47 20.5 27.9 51.5 0.267 81.7 18.3
6.0 73.362 60.724 1.54 20.4 28.3 51.3 0.268 81.6 18.4
6.0 82.304 60.724 1.67 20.5 28.2 51.3 0.274 81.7 18.3
6.0 91.246 60.724 1.77 20.2 29.0 50.8 0.281 81.6 18.4
6.0 100.188 60.724 1.75 20.3 28.7 51.0 0.268 81.5 18.5
6.0 109.13 60.724 1.88 20.1 29.6 50.3 0.293 81.8 18.2
6.0 118.072 60.724 1.91 20.1 29.5 50.4 0.29 81.6 18.4
6.0 127.014 60.724 1.87 20.4 28.6 50.9 0.261 81.4 18.6
6.0 135.956 60.724 2.14 20.0 30.0 50.0 0.296 81.5 18.5
6.0 144.898 60.724 2.27 20.0 29.9 50.1 0.302 81.7 18.3
6.0 153.842 60.724 2.25 20.2 29.6 50.2 0.287 81.7 18.3
6.0 162.784 60.724 2.32 19.7 30.7 49.6 0.303 81.7 18.3
6.0 171.726 60.724 2.43 19.9 30.8 49.3 0.314 81.7 18.3
6.0 180.666 60.724 2.43 19.7 30.6 49.6 0.314 81.6 18.4
6.0 43.556 66.792 1.5 18.2 36.3 45.6 0.389 80.3 19.7
6.0 52.498 66.792 1.3 21.2 27.4 51.4 0.261 81.7 18.3
6.0 61.44 66.792 1.44 20.8 27.9 51.3 0.263 81.7 18.3
6.0 70.382 66.792 1.53 20.5 28.0 51.4 0.264 81.7 18.3
6.0 79.324 66.792 1.6 20.4 28.1 51.5 0.274 81.6 18.4
6.0 88.268 66.792 1.77 20.0 29.4 50.6 0.288 81.7 18.3
6.0 97.208 66.792 1.83 20.2 29.3 50.5 0.291 81.7 18.3
6.0 106.152 66.792 1.86 20.1 29.4 50.5 0.283 81.6 18.4
6.0 115.092 66.792 1.88 20.1 29.4 50.5 0.281 81.6 18.4
6.0 124.034 66.792 1.87 20.6 28.7 50.7 0.275 81.5 18.5
6.0 132.978 66.792 1.98 20.2 29.2 50.6 0.285 81.6 18.4
6.0 141.92 66.792 2.23 19.9 29.8 50.2 0.287 81.6 18.4
6.0 150.86 66.792 2.35 19.9 30.2 49.9 0.305 81.7 18.3
6.0 159.8 66.792 2.33 19.8 30.3 49.8 0.298 81.6 18.4
6.0 168.742 66.792 2.37 19.7 30.3 49.9 0.305 81.6 18.4
6.0 177.684 66.792 2.4 19.7 30.7 49.5 0.311 81.8 18.2
6.0 40.576 72.858 1.71 16.8 39.8 43.5 0.496 79.8 20.2
6.0 49.518 72.858 1.29 20.5 28.0 51.5 0.267 81.6 18.4
6.0 58.462 72.858 1.41 20.8 27.7 51.5 0.261 81.8 18.2
6.0 67.404 72.858 1.5 20.5 28.0 51.6 0.263 81.7 18.3
6.0 76.344 72.858 1.58 20.3 28.0 51.7 0.271 81.7 18.3
6.0 85.288 72.858 1.74 20.0 29.1 50.9 0.291 81.7 18.3
6.0 94.23 72.858 1.75 20.1 28.9 51.0 0.268 81.7 18.3
6.0 103.17 72.858 1.88 19.9 29.7 50.4 0.289 81.7 18.3
6.0 112.114 72.858 1.81 20.4 28.7 50.9 0.261 81.5 18.5
6.0 121.052 72.858 1.88 20.2 29.3 50.5 0.268 81.6 18.4
6.0 129.994 72.858 1.96 20.2 29.1 50.7 0.274 81.5 18.5
6.0 138.936 72.858 2.29 19.8 30.1 50.0 0.3 81.8 18.2
6.0 147.878 72.858 2.31 19.9 30.2 49.8 0.298 81.6 18.4
6.0 156.82 72.858 2.37 19.8 30.4 49.8 0.31 81.7 18.3
6.0 165.762 72.858 2.36 19.9 30.5 49.6 0.31 81.7 18.3
6.0 174.704 72.858 2.42 19.9 30.7 49.4 0.312 81.7 18.3
6.0 183.648 72.858 2.43 19.7 30.7 49.6 0.307 81.7 18.3
6.0 46.54 78.924 1.48 18.9 34.1 47.0 0.349 80.7 19.3
6.0 55.48 78.924 1.35 20.7 27.3 52.0 0.254 81.7 18.3
6.0 64.42 78.924 1.5 20.6 27.8 51.6 0.266 81.7 18.3
6.0 73.362 78.924 1.54 20.4 28.0 51.6 0.265 81.7 18.3
6.0 82.304 78.924 1.66 20.5 28.2 51.3 0.276 81.7 18.3
6.0 91.246 78.924 1.78 20.1 29.1 50.8 0.278 81.6 18.4
6.0 100.19 78.924 1.82 20.1 29.4 50.5 0.282 81.6 18.4
6.0 109.13 78.924 1.84 20.1 29.1 50.8 0.277 81.5 18.5
6.0 118.072 78.924 1.89 20.2 29.3 50.4 0.282 81.6 18.4
6.0 127.014 78.924 1.89 20.2 29.0 50.8 0.272 81.4 18.6
6.0 135.956 78.924 2.13 20.1 29.6 50.3 0.292 81.7 18.3
6.0 144.898 78.924 2.34 19.6 30.6 49.7 0.304 81.7 18.3
6.0 153.842 78.924 2.38 19.9 30.3 49.8 0.302 81.8 18.2
6.0 162.784 78.924 2.43 19.6 31.1 49.3 0.326 81.7 18.3
6.0 171.724 78.924 2.42 19.8 30.7 49.5 0.321 81.8 18.2
6.0 180.666 78.924 2.43 19.6 30.6 49.8 0.311 81.8 18.2
7.0 46.892 145.278 1.51 22.3 27.6 50.1 0.301 81.5 18.5
7.0 55.824 145.278 1.72 22.3 28.2 49.5 0.305 81.6 18.4
7.0 64.752 145.278 1.86 22.1 28.5 49.4 0.304 81.6 18.4
7.0 73.682 145.278 1.92 22.2 28.1 49.8 0.303 81.5 18.5
7.0 82.612 145.278 2.14 22.2 28.2 49.6 0.305 81.6 18.4
7.0 91.542 145.278 2.37 21.8 28.9 49.3 0.318 81.7 18.3
7.0 100.474 145.278 2.28 22.1 28.2 49.7 0.298 81.4 18.6
7.0 109.402 145.278 2.53 21.7 29.2 49.1 0.329 81.5 18.5
7.0 118.332 145.278 2.66 21.6 29.4 49.0 0.337 81.7 18.3
7.0 127.262 145.278 2.79 21.3 30.5 48.2 0.351 81.6 18.4
7.0 136.194 145.278 2.82 21.4 30.0 48.6 0.339 81.7 18.3
7.0 145.122 145.278 2.87 21.2 30.2 48.6 0.346 81.6 18.4
7.0 154.052 145.278 2.87 21.2 30.1 48.7 0.352 81.5 18.5
7.0 162.984 145.278 2.92 21.1 30.3 48.6 0.35 81.6 18.4
7.0 46.892 151.236 1.5 22.3 27.8 49.9 0.3 81.6 18.4
7.0 55.824 151.236 1.72 22.2 28.2 49.5 0.302 81.6 18.4
7.0 64.754 151.236 1.86 22.2 28.2 49.6 0.314 81.7 18.3
7.0 73.684 151.236 1.95 22.1 28.2 49.7 0.307 81.7 18.3
7.0 82.612 151.236 2.16 22.1 28.3 49.6 0.303 81.6 18.4
7.0 91.542 151.236 2.36 21.9 28.8 49.3 0.321 81.7 18.3
7.0 100.472 151.236 2.35 21.9 28.4 49.7 0.303 81.4 18.6
7.0 109.402 151.236 2.49 21.8 29.1 49.1 0.32 81.5 18.5
7.0 118.332 151.236 2.59 21.9 29.0 49.0 0.324 81.6 18.4
7.0 127.262 151.236 2.74 21.3 30.1 48.6 0.348 81.4 18.6
7.0 136.192 151.236 2.82 21.4 29.9 48.7 0.346 81.5 18.5
7.0 145.122 151.236 2.86 21.3 30.2 48.5 0.342 81.5 18.5
7.0 154.052 151.236 2.89 21.1 30.4 48.5 0.346 81.6 18.4
7.0 162.984 151.236 2.92 21.1 30.3 48.6 0.353 81.6 18.4
7.0 46.892 157.192 1.52 22.4 27.7 49.9 0.299 81.5 18.5
7.0 55.822 157.192 1.7 22.4 28.1 49.5 0.303 81.6 18.4
7.0 64.752 157.192 1.85 22.0 28.3 49.6 0.308 81.6 18.4
7.0 73.684 157.192 1.94 22.0 28.1 49.9 0.308 81.6 18.4
7.0 82.612 157.192 2.12 22.1 27.9 50.0 0.312 81.6 18.4
7.0 91.544 157.192 2.38 21.8 28.9 49.4 0.316 81.6 18.4
7.0 103.448 157.192 2.5 21.9 29.1 49.0 0.326 81.7 18.3
7.0 112.378 157.192 2.61 21.7 29.3 49.0 0.328 81.6 18.4
7.0 121.308 157.192 2.7 21.7 29.6 48.8 0.338 81.6 18.4
7.0 130.238 157.192 2.75 21.6 29.8 48.6 0.342 81.6 18.4
7.0 139.168 157.192 2.81 21.3 29.9 48.8 0.341 81.6 18.4
7.0 148.1 157.192 2.78 21.6 29.4 49.0 0.33 81.5 18.5
7.0 157.028 157.192 2.9 21.1 29.9 49.0 0.343 81.7 18.3
7.0 165.958 157.192 2.9 21.3 30.1 48.6 0.347 81.6 18.4
7.0 49.872 163.152 1.56 22.4 27.6 50.0 0.288 81.7 18.3
7.0 58.802 163.152 1.77 22.1 27.9 50.0 0.303 81.6 18.4
7.0 67.73 163.152 1.88 22.2 28.0 49.9 0.311 81.6 18.4
7.0 76.658 163.152 2.0 22.0 28.0 50.0 0.311 81.6 18.4
7.0 85.588 163.152 2.27 21.6 28.9 49.5 0.324 81.6 18.4
7.0 94.52 163.152 2.39 22.0 28.6 49.4 0.316 81.6 18.4
7.0 106.426 163.152 2.56 21.7 29.7 48.7 0.335 81.6 18.4
7.0 115.356 163.152 2.65 21.5 29.8 48.7 0.341 81.6 18.4
7.0 124.286 163.152 2.74 21.5 29.7 48.7 0.343 81.6 18.4
7.0 133.216 163.152 2.79 21.6 29.5 48.9 0.343 81.6 18.4
7.0 142.144 163.152 2.83 21.4 29.9 48.7 0.348 81.5 18.5
7.0 151.074 163.152 2.87 21.2 29.9 48.9 0.346 81.6 18.4
7.0 160.004 163.152 2.91 20.9 30.4 48.6 0.345 81.6 18.4
7.0 43.916 169.108 1.45 21.7 27.7 50.6 0.306 81.5 18.5
7.0 52.846 169.108 1.64 22.4 27.9 49.7 0.297 81.7 18.3
7.0 61.776 169.108 1.82 22.3 28.0 49.7 0.307 81.5 18.5
7.0 70.706 169.108 1.92 22.1 28.3 49.6 0.311 81.6 18.4
7.0 79.636 169.108 2.06 22.0 28.2 49.8 0.316 81.6 18.4
7.0 88.566 169.108 2.32 21.9 29.0 49.2 0.323 81.5 18.5
7.0 97.496 169.108 2.46 21.6 29.4 49.0 0.337 81.7 18.3
7.0 106.426 169.108 2.52 21.8 29.1 49.2 0.331 81.5 18.5
7.0 115.356 169.108 2.6 21.7 29.7 48.6 0.332 81.4 18.6
7.0 124.286 169.108 2.68 21.6 29.5 48.9 0.34 81.6 18.4
7.0 133.216 169.108 2.77 21.6 29.4 49.0 0.339 81.6 18.4
7.0 142.144 169.108 2.82 21.4 29.9 48.8 0.347 81.6 18.4
7.0 151.074 169.108 2.85 21.2 29.9 48.9 0.346 81.6 18.4
7.0 160.006 169.108 2.9 21.0 30.1 48.9 0.35 81.6 18.4
8.0 72.668 86.032 -1.0 -1.0 -1.0 -1.0 -1.0 -1.0 -1.0
8.0 81.65 86.032 -1.0 -1.0 -1.0 -1.0 -1.0 -1.0 -1.0
8.0 90.634 86.032 1.68 24.5 27.6 47.8 0.3 81.6 18.4
8.0 99.616 86.032 1.8 24.7 27.9 47.4 0.307 81.7 18.3
8.0 108.598 86.032 1.86 24.2 28.2 47.6 0.312 81.7 18.3
8.0 117.58 86.032 1.93 24.2 28.4 47.4 0.313 81.7 18.3
8.0 126.562 86.032 1.91 24.3 28.4 47.4 0.322 81.6 18.4
8.0 135.546 86.032 2.13 24.0 28.6 47.4 0.326 81.7 18.3
8.0 144.53 86.032 -1.0 -1.0 -1.0 -1.0 -1.0 -1.0 -1.0
8.0 153.51 86.032 2.12 23.8 28.0 48.1 0.315 81.7 18.3
8.0 162.492 86.032 1.84 24.0 27.4 48.6 0.319 81.3 18.7
8.0 171.478 86.032 1.96 23.8 27.8 48.4 0.322 81.5 18.5
8.0 180.458 86.032 1.97 23.9 28.2 48.0 0.33 81.5 18.5
8.0 189.44 86.032 2.07 23.6 28.4 48.0 0.333 81.5 18.5
8.0 78.656 92.104 -1.0 -1.0 -1.0 -1.0 -1.0 -1.0 -1.0
8.0 87.638 92.104 1.63 24.6 27.8 47.6 0.309 81.5 18.5
8.0 96.622 92.104 1.6 24.6 27.5 47.9 0.312 81.6 18.4
8.0 105.606 92.104 1.86 24.2 28.5 47.3 0.319 81.6 18.4
8.0 114.586 92.104 1.79 24.4 27.9 47.6 0.314 81.6 18.4
8.0 123.568 92.104 2.01 23.9 28.8 47.3 0.319 81.7 18.3
8.0 132.552 92.104 1.92 23.8 28.5 47.7 0.329 81.5 18.5
8.0 141.536 92.104 -1.0 -1.0 -1.0 -1.0 -1.0 -1.0 -1.0
8.0 150.516 92.104 1.99 24.0 28.1 47.8 0.323 81.6 18.4
8.0 159.5 92.104 2.38 23.6 29.2 47.2 0.33 81.6 18.4
8.0 168.48 92.104 2.29 23.6 28.4 48.0 0.324 81.6 18.4
8.0 177.464 92.104 2.47 23.4 29.3 47.3 0.331 81.7 18.3
8.0 186.448 92.104 2.46 23.3 29.3 47.4 0.34 81.6 18.4
8.0 75.662 98.178 -1.0 -1.0 -1.0 -1.0 -1.0 -1.0 -1.0
8.0 84.644 98.178 1.49 24.9 26.9 48.3 0.292 81.6 18.4
8.0 93.628 98.178 1.38 24.8 26.3 48.9 0.302 81.6 18.4
8.0 102.61 98.178 1.64 24.6 27.2 48.2 0.31 81.6 18.4
8.0 111.592 98.178 1.5 24.7 26.6 48.6 0.312 81.5 18.5
8.0 120.574 98.178 1.78 24.4 27.8 47.9 0.317 81.5 18.5
8.0 129.556 98.178 1.65 24.4 27.5 48.0 0.322 81.4 18.6
8.0 138.54 98.178 1.87 24.0 28.0 48.0 0.316 81.5 18.5
8.0 147.522 98.178 1.65 24.2 26.9 48.9 0.308 81.4 18.6
8.0 156.504 98.178 1.99 24.0 28.5 47.6 0.33 81.4 18.6
8.0 165.486 98.178 1.84 23.9 27.9 48.2 0.329 81.3 18.7
8.0 174.47 98.178 2.4 23.5 29.3 47.1 0.345 81.5 18.5
8.0 183.452 98.178 2.04 23.6 28.9 47.5 0.345 81.4 18.6
8.0 72.668 104.252 1.48 24.9 26.7 48.4 0.271 81.6 18.4
8.0 81.65 104.252 1.58 24.5 27.3 48.1 0.291 81.6 18.4
8.0 90.632 104.252 1.74 24.3 28.0 47.7 0.313 81.7 18.3
8.0 99.616 104.252 1.84 24.3 28.2 47.5 0.32 81.7 18.3
8.0 108.598 104.252 1.87 24.3 28.2 47.5 0.311 81.6 18.4
8.0 117.58 104.252 1.97 24.1 28.5 47.4 0.319 81.7 18.3
8.0 126.562 104.252 1.9 24.1 28.4 47.5 0.32 81.6 18.4
8.0 135.546 104.252 2.17 23.8 28.6 47.6 0.32 81.6 18.4
8.0 144.53 104.252 1.96 24.2 27.8 48.0 0.312 81.6 18.4
8.0 153.512 104.252 2.29 23.8 28.5 47.6 0.316 81.6 18.4
8.0 162.494 104.252 1.87 24.1 27.4 48.5 0.313 81.5 18.5
8.0 171.476 104.252 2.05 23.9 27.9 48.2 0.326 81.6 18.4
8.0 180.458 104.252 1.85 23.9 28.1 48.1 0.337 81.4 18.6
8.0 189.44 104.252 2.1 23.8 28.2 48.0 0.336 81.5 18.5
8.0 78.656 110.324 1.55 24.8 26.1 49.0 0.278 81.7 18.3
8.0 87.638 110.324 1.64 24.3 27.9 47.8 0.307 81.6 18.4
8.0 96.622 110.324 1.82 24.1 28.5 47.4 0.315 81.7 18.3
8.0 105.606 110.324 1.88 23.9 28.7 47.4 0.321 81.6 18.4
8.0 114.588 110.324 1.94 23.9 28.8 47.2 0.324 81.6 18.4
8.0 123.568 110.324 2.04 24.0 28.7 47.3 0.328 81.7 18.3
8.0 132.554 110.324 2.18 23.9 29.0 47.2 0.33 81.6 18.4
8.0 141.534 110.324 2.28 23.4 29.3 47.3 0.323 81.6 18.4
8.0 150.516 110.324 2.0 23.9 28.3 47.8 0.316 81.5 18.5
8.0 159.5 110.324 2.38 23.8 28.8 47.3 0.329 81.7 18.3
8.0 168.48 110.324 2.33 23.6 28.7 47.8 0.322 81.6 18.4
8.0 177.464 110.324 2.46 23.5 29.1 47.4 0.337 81.6 18.4
8.0 186.446 110.324 2.46 23.5 29.1 47.4 0.332 81.6 18.4
9.0 79.406 147.286 1.54 24.0 27.0 49.0 0.284 81.7 18.3
9.0 88.398 147.286 1.33 23.9 26.9 49.2 0.296 81.5 18.5
9.0 97.394 147.286 1.58 23.3 28.2 48.5 0.314 81.6 18.4
9.0 106.386 147.286 1.45 23.4 27.6 49.0 0.319 81.5 18.5
9.0 115.378 147.286 1.72 23.2 28.1 48.7 0.31 81.6 18.4
9.0 124.372 147.286 1.6 22.8 28.9 48.4 0.342 81.3 18.7
9.0 133.366 147.286 -1.0 -1.0 -1.0 -1.0 -1.0 -1.0 -1.0
9.0 142.36 147.286 1.76 23.1 28.2 48.8 0.328 81.4 18.6
9.0 151.352 147.286 2.03 22.8 29.0 48.2 0.331 81.5 18.5
9.0 160.346 147.286 1.88 23.2 28.0 48.8 0.326 81.5 18.5
9.0 169.338 147.286 2.41 22.7 29.7 47.6 0.338 81.6 18.4
9.0 178.332 147.286 2.46 22.6 29.9 47.5 0.337 81.6 18.4
9.0 187.324 147.286 2.47 22.7 30.0 47.2 0.344 81.6 18.4
9.0 76.408 153.318 -1.0 -1.0 -1.0 -1.0 -1.0 -1.0 -1.0
9.0 85.402 153.318 1.55 23.7 27.5 48.8 0.283 81.6 18.4
9.0 94.394 153.318 1.77 23.4 28.5 48.1 0.307 81.7 18.3
9.0 103.388 153.318 1.84 23.0 28.7 48.3 0.314 81.6 18.4
9.0 112.38 153.318 1.88 23.4 28.3 48.4 0.312 81.7 18.3
9.0 121.374 153.318 1.93 22.7 29.4 47.9 0.323 81.7 18.3
9.0 130.368 153.318 -1.0 -1.0 -1.0 -1.0 -1.0 -1.0 -1.0
9.0 139.36 153.318 1.9 23.0 28.2 48.7 0.318 81.6 18.4
9.0 148.354 153.318 1.92 23.1 28.1 48.8 0.312 81.6 18.4
9.0 157.348 153.318 1.84 23.0 28.3 48.6 0.325 81.5 18.5
9.0 166.34 153.318 1.92 23.2 27.8 49.0 0.324 81.5 18.5
9.0 175.334 153.318 1.86 23.1 28.2 48.7 0.333 81.4 18.6
9.0 184.326 153.318 1.98 23.0 28.4 48.6 0.331 81.5 18.5
9.0 193.322 153.318 1.87 23.2 28.0 48.9 0.333 81.4 18.6
9.0 82.406 159.346 1.49 23.8 27.6 48.6 0.299 81.6 18.4
9.0 91.398 159.346 1.57 23.3 28.1 48.6 0.308 81.6 18.4
9.0 100.39 159.346 1.83 23.1 28.9 47.9 0.323 81.6 18.4
9.0 109.384 159.346 1.75 23.0 28.7 48.4 0.321 81.5 18.5
9.0 118.376 159.346 1.94 22.9 29.1 48.0 0.325 81.6 18.4
9.0 127.37 159.346 1.84 22.9 28.4 48.6 0.319 81.5 18.5
9.0 136.362 159.346 2.14 22.6 29.1 48.3 0.315 81.7 18.3
9.0 145.356 159.346 1.94 22.7 29.2 48.1 0.334 81.4 18.6
9.0 154.35 159.346 2.32 22.5 29.5 48.0 0.325 81.6 18.4
9.0 163.342 159.346 2.01 23.0 28.5 48.5 0.325 81.6 18.4
9.0 172.336 159.346 2.43 22.7 29.5 47.8 0.334 81.6 18.4
9.0 181.33 159.346 2.23 22.9 29.0 48.1 0.337 81.5 18.5
9.0 190.324 159.346 2.47 22.8 29.7 47.5 0.339 81.7 18.3
9.0 79.406 165.376 1.61 23.6 28.3 48.1 0.295 81.6 18.4
9.0 88.398 165.376 1.57 23.7 28.1 48.3 0.305 81.6 18.4
9.0 97.392 165.376 1.65 23.2 28.3 48.4 0.314 81.5 18.5
9.0 106.386 165.376 1.51 23.3 27.8 48.9 0.321 81.5 18.5
9.0 115.378 165.376 1.8 23.0 28.8 48.2 0.328 81.5 18.5
9.0 124.372 165.376 1.57 23.2 27.6 49.2 0.316 81.4 18.6
9.0 133.366 165.376 1.86 23.1 28.4 48.5 0.313 81.5 18.5
9.0 142.358 165.376 1.75 22.8 28.6 48.6 0.339 81.3 18.7
9.0 151.352 165.376 2.04 22.7 29.3 47.9 0.329 81.5 18.5
9.0 160.346 165.376 1.88 22.9 28.4 48.7 0.329 81.4 18.6
9.0 169.338 165.376 2.41 22.7 29.4 47.9 0.336 81.6 18.4
9.0 178.332 165.376 1.99 22.9 28.9 48.2 0.334 81.5 18.5
9.0 187.324 165.376 2.46 22.7 29.7 47.6 0.342 81.6 18.4
9.0 76.408 171.408 1.64 23.1 29.4 47.6 0.322 81.5 18.5
9.0 85.404 171.408 1.69 23.6 28.5 47.9 0.305 81.7 18.3
9.0 94.396 171.408 1.78 23.4 28.1 48.5 0.306 81.7 18.3
9.0 103.388 171.408 1.86 23.1 28.7 48.2 0.312 81.6 18.4
9.0 112.38 171.408 1.92 22.9 29.0 48.0 0.317 81.7 18.3
9.0 121.374 171.408 1.97 22.9 28.9 48.1 0.32 81.7 18.3
9.0 130.368 171.408 -1.0 -1.0 -1.0 -1.0 -1.0 -1.0 -1.0
9.0 139.362 171.408 1.86 22.9 28.5 48.5 0.321 81.4 18.6
9.0 148.354 171.408 1.95 23.0 28.2 48.7 0.316 81.6 18.4
9.0 157.348 171.408 1.8 23.2 27.4 49.4 0.315 81.5 18.5
9.0 166.34 171.408 1.93 23.1 28.0 48.9 0.325 81.5 18.5
9.0 175.334 171.408 1.81 22.9 28.0 49.1 0.332 81.4 18.6
9.0 184.328 171.408 1.98 23.1 28.3 48.6 0.332 81.4 18.6
9.0 193.32 171.408 1.79 23.3 27.6 49.0 0.333 81.3 18.7
10.0 79.362 29.83 1.63 20.1 32.5 47.4 0.337 81.4 18.6
10.0 88.39 29.83 1.74 19.9 33.5 46.6 0.347 81.2 18.8
10.0 97.416 29.83 1.8 20.1 32.5 47.5 0.34 81.4 18.6
10.0 106.444 29.83 1.87 19.8 33.5 46.8 0.359 81.2 18.8
10.0 115.474 29.83 1.92 19.7 33.1 47.1 0.359 81.3 18.7
10.0 124.498 29.83 1.96 19.9 32.9 47.2 0.361 81.4 18.6
10.0 133.528 29.83 2.05 19.7 32.7 47.6 0.371 81.4 18.6
10.0 142.554 29.83 2.17 19.3 33.4 47.2 0.379 81.2 18.8
10.0 151.58 29.83 2.24 19.5 33.9 46.5 0.387 81.2 18.8
10.0 160.608 29.83 2.29 19.5 33.8 46.7 0.391 81.1 18.9
10.0 169.638 29.83 2.35 19.1 35.3 45.6 0.4 80.9 19.1
10.0 178.662 29.83 2.35 19.2 35.1 45.7 0.395 81.0 19.0
10.0 187.69 29.83 2.37 19.0 35.8 45.2 0.409 80.8 19.2
10.0 73.344 35.966 1.46 21.1 29.1 49.8 0.287 81.6 18.4
10.0 82.374 35.966 1.66 20.2 32.3 47.6 0.337 81.5 18.5
10.0 91.398 35.966 1.76 20.0 32.2 47.9 0.342 81.4 18.6
10.0 100.426 35.966 1.82 19.9 32.4 47.7 0.345 81.5 18.5
10.0 109.456 35.966 1.88 20.0 32.6 47.4 0.348 81.4 18.6
10.0 118.48 35.966 1.93 19.8 32.4 47.7 0.354 81.4 18.6
10.0 127.508 35.966 1.99 19.9 32.9 47.2 0.355 81.4 18.6
10.0 136.538 35.966 2.07 19.9 32.7 47.4 0.365 81.5 18.5
10.0 145.562 35.966 2.18 19.8 32.9 47.4 0.373 81.3 18.7
10.0 154.59 35.966 2.23 19.7 33.2 47.1 0.383 81.3 18.7
10.0 163.616 35.966 2.3 19.5 33.8 46.7 0.381 81.1 18.9
10.0 172.644 35.966 2.35 19.3 35.2 45.6 0.396 80.9 19.1
10.0 181.672 35.966 2.35 19.2 35.1 45.7 0.4 80.9 19.1
10.0 190.7 35.966 2.35 19.3 35.2 45.5 0.404 80.9 19.1
10.0 76.356 42.098 1.55 20.4 31.2 48.3 0.314 81.6 18.4
10.0 85.38 42.098 1.68 20.3 32.3 47.4 0.337 81.5 18.5
10.0 94.408 42.098 1.78 19.9 32.4 47.6 0.345 81.4 18.6
10.0 103.434 42.098 1.84 20.0 32.6 47.5 0.341 81.3 18.7
10.0 112.462 42.098 1.89 20.0 32.6 47.4 0.348 81.5 18.5
10.0 121.49 42.098 1.95 20.1 32.7 47.2 0.367 81.4 18.6
10.0 130.516 42.098 -1.0 -1.0 -1.0 -1.0 -1.0 -1.0 -1.0
10.0 139.544 42.098 2.14 19.5 33.3 47.1 0.375 81.2 18.8
10.0 148.572 42.098 2.22 19.6 33.3 47.1 0.378 81.4 18.6
10.0 157.598 42.098 2.28 19.5 33.7 46.9 0.388 81.1 18.9
10.0 166.626 42.098 2.29 19.5 34.0 46.5 0.379 81.1 18.9
10.0 175.654 42.098 2.34 19.3 35.2 45.5 0.395 81.0 19.0
10.0 184.68 42.098 2.37 19.0 35.6 45.4 0.407 80.9 19.1
10.0 193.708 42.098 2.33 19.2 35.0 45.8 0.392 81.0 19.0
10.0 79.362 48.234 1.58 20.4 31.9 47.6 0.324 81.4 18.6
10.0 88.39 48.234 1.69 20.1 32.4 47.5 0.334 81.3 18.7
10.0 97.416 48.234 1.82 20.0 33.0 47.0 0.351 81.3 18.7
10.0 106.446 48.234 1.86 20.0 33.0 47.0 0.347 81.3 18.7
10.0 115.472 48.234 1.91 19.9 32.9 47.2 0.35 81.4 18.6
10.0 124.498 48.234 1.97 20.1 32.5 47.4 0.361 81.6 18.4
10.0 133.526 48.234 2.06 19.9 32.5 47.5 0.363 81.4 18.6
10.0 142.554 48.234 2.21 19.6 33.8 46.6 0.378 81.2 18.8
10.0 151.58 48.234 2.29 19.4 34.4 46.2 0.382 81.2 18.8
10.0 160.608 48.234 1.96 19.8 32.4 47.8 0.368 81.3 18.7
10.0 169.636 48.234 2.35 19.3 35.0 45.7 0.399 80.9 19.1
10.0 178.662 48.234 2.35 19.1 35.2 45.6 0.397 80.9 19.1
10.0 187.69 48.234 2.38 19.0 35.7 45.3 0.413 80.9 19.1
10.0 73.344 54.368 1.46 21.4 28.7 49.9 0.284 81.7 18.3
10.0 82.372 54.368 1.65 20.1 32.7 47.2 0.336 81.4 18.6
10.0 91.398 54.368 1.76 20.2 32.5 47.3 0.342 81.5 18.5
10.0 100.426 54.368 1.82 20.2 32.4 47.4 0.339 81.5 18.5
10.0 109.454 54.368 1.88 19.9 32.8 47.3 0.35 81.3 18.7
10.0 118.48 54.368 1.94 19.9 33.2 47.0 0.357 81.3 18.7
10.0 127.51 54.368 1.98 20.2 32.5 47.3 0.349 81.5 18.5
10.0 136.536 54.368 2.1 19.7 32.9 47.5 0.369 81.3 18.7
10.0 145.564 54.368 2.18 19.9 32.4 47.8 0.37 81.4 18.6
10.0 154.59 54.368 1.9 19.7 32.8 47.5 0.382 81.2 18.8
10.0 163.616 54.368 1.95 19.5 33.7 46.8 0.389 81.1 18.9
10.0 172.644 54.368 1.94 19.6 33.1 47.2 0.377 81.2 18.8
10.0 181.672 54.368 2.18 19.9 32.9 47.2 0.345 81.3 18.7
10.0 190.698 54.368 2.08 19.4 34.9 45.7 0.401 81.0 19.0
11.0 61.875 142.255 1.565 13.3 42.15 44.6 0.4515 80.25 19.75
11.0 70.792 142.255 1.665 13.3 42.4 44.3 0.4555 80.15 19.85
11.0 79.713 142.255 1.71 13.55 41.8 44.65 0.448 80.25 19.75
11.0 88.63 142.255 1.785 13.55 41.95 44.5 0.4525 80.15 19.85
11.0 97.548 142.255 1.79 13.75 41.55 44.7 0.435 80.15 19.85
11.0 106.467 142.255 1.76 14.0 41.1 44.9 0.4225 80.1 19.9
11.0 115.384 142.255 1.63 14.1 40.6 45.3 0.383 79.8 20.2
11.0 124.302 142.255 1.88 14.1 40.95 44.9 0.427 79.95 20.05
11.0 133.221 142.255 1.89 14.4 40.85 44.75 0.4185 80.0 20.0
11.0 142.14 142.255 2.025 14.2 41.05 44.7 0.4345 80.05 19.95
11.0 151.058 142.255 2.065 14.3 41.15 44.5 0.439 80.1 19.9
11.0 159.974 142.255 2.08 14.4 41.05 44.55 0.4365 80.15 19.85
11.0 168.894 142.255 2.065 14.45 40.9 44.6 0.4355 80.05 19.95
11.0 177.812 142.255 2.055 14.6 41.0 44.4 0.4405 80.1 19.9
12.0 57.414 136.052 1.41 13.75 42.1 44.15 0.452 80.3 19.7
12.0 66.442 136.052 1.495 13.9 41.95 44.15 0.449 80.15 19.85
12.0 75.469 136.052 1.51 14.1 41.55 44.4 0.436 80.15 19.85
12.0 84.494 136.052 1.57 14.1 41.45 44.45 0.435 80.0 20.0
12.0 93.524 136.052 1.68 14.1 41.7 44.2 0.4515 79.95 20.05
12.0 102.548 136.052 1.62 14.35 40.9 44.8 0.424 80.0 20.0
12.0 111.577 136.052 1.66 14.5 40.7 44.8 0.4205 79.9 20.1
12.0 120.605 136.052 1.755 14.55 40.95 44.55 0.429 79.85 20.15
12.0 129.631 136.052 1.765 14.65 40.75 44.6 0.4195 79.9 20.1
12.0 138.659 136.052 1.77 14.8 40.5 44.7 0.415 79.95 20.05
12.0 147.685 136.052 1.92 14.8 40.85 44.4 0.4375 80.1 19.9
12.0 156.713 136.052 1.98 14.9 40.7 44.35 0.4385 80.1 19.9
12.0 165.739 136.052 1.985 15.0 40.75 44.3 0.4395 80.05 19.95
12.0 174.766 136.052 2.03 15.05 40.9 44.05 0.4395 80.05 19.95
13.0 53.16 116.641 1.82 13.2 42.45 44.3 0.4515 80.15 19.85
13.0 62.101 116.641 1.655 13.15 41.75 45.1 0.443 80.15 19.85
13.0 71.041 116.641 1.89 13.25 42.35 44.45 0.451 80.1 19.9
13.0 79.981 116.641 1.89 13.3 42.05 44.6 0.4535 80.1 19.9
13.0 88.918 116.641 1.95 13.5 41.9 44.65 0.458 79.9 20.1
13.0 97.858 116.641 2.01 13.7 41.65 44.6 0.4525 79.9 20.1
13.0 106.799 116.641 2.04 14.0 41.2 44.8 0.451 79.85 20.15
13.0 115.738 116.641 2.155 14.1 41.3 44.6 0.4525 79.7 20.3
13.0 124.68 116.641 2.175 14.4 41.05 44.55 0.4485 79.8 20.2
13.0 133.619 116.641 2.22 14.6 40.85 44.6 0.449 79.75 20.25
13.0 142.559 116.641 2.58 14.75 40.9 44.35 0.4335 79.9 20.1
13.0 151.498 116.641 2.66 14.95 40.9 44.15 0.4305 79.95 20.05
13.0 160.438 116.641 2.745 15.05 41.0 43.95 0.4345 79.95 20.05
13.0 169.377 116.641 2.765 15.15 40.85 44.0 0.431 80.0 20.0
13.0 178.317 116.641 2.735 15.25 40.65 44.1 0.431 79.95 20.05
14.0 58.91 103.706 1.58 14.1 41.8 44.1 0.45 80.15 19.85
14.0 67.982 103.706 1.675 14.05 41.95 43.95 0.458 80.1 19.9
14.0 77.05 103.706 1.775 14.25 41.9 43.9 0.4485 80.05 19.95
14.0 86.12 103.706 1.865 14.35 41.55 44.1 0.4535 80.1 19.9
14.0 95.192 103.706 2.055 14.5 41.9 43.6 0.4455 80.0 20.0
14.0 104.26 103.706 2.23 14.8 41.6 43.6 0.447 80.1 19.9
14.0 113.331 103.706 2.29 15.0 41.35 43.65 0.439 80.05 19.95
14.0 122.401 103.706 2.235 15.15 41.05 43.8 0.427 79.8 20.2
14.0 131.47 103.706 2.235 15.35 40.8 43.85 0.4195 79.8 20.2
14.0 140.54 103.706 2.5 15.5 41.1 43.45 0.44 80.0 20.0
14.0 149.611 103.706 2.55 15.6 41.05 43.4 0.44 79.95 20.05
14.0 158.68 103.706 2.59 15.55 41.1 43.4 0.4435 79.95 20.05
14.0 167.75 103.706 2.6 15.6 40.9 43.5 0.44 79.9 20.1
14.0 176.818 103.706 2.58 15.65 40.75 43.65 0.441 80.0 20.0
15.0 58.817 89.449 1.575 14.75 40.95 44.3 0.363 80.3 19.7
15.0 67.804 89.449 1.67 14.7 40.85 44.45 0.3705 80.25 19.75
15.0 76.786 89.449 1.745 14.75 40.95 44.35 0.3775 80.2 19.8
15.0 85.773 89.449 1.81 14.8 41.1 44.15 0.382 80.15 19.85
15.0 94.756 89.449 1.865 14.9 41.1 44.0 0.387 80.1 19.9
15.0 103.74 89.449 1.9 15.15 40.8 44.05 0.3885 80.2 19.8
15.0 112.726 89.449 1.94 15.25 40.8 44.0 0.4025 80.2 19.8
15.0 121.711 89.449 2.035 15.3 41.1 43.6 0.4155 80.05 19.95
15.0 130.695 89.449 2.065 15.5 41.0 43.5 0.41 80.2 19.8
15.0 139.681 89.449 2.035 15.9 40.25 43.9 0.4 80.2 19.8
15.0 148.666 89.449 2.23 15.6 41.15 43.2 0.4215 80.0 20.0
15.0 157.648 89.449 2.185 16.15 40.5 43.3 0.4115 80.05 19.95
15.0 166.635 89.449 2.205 16.4 40.35 43.25 0.4085 79.95 20.05
15.0 175.619 89.449 2.12 16.7 39.7 43.65 0.4025 80.2 19.8
16.0 56.706 76.185 1.76 14.0 43.1 42.95 0.48 80.1 19.9
16.0 65.691 76.185 1.82 13.9 42.9 43.2 0.473 80.2 19.8
16.0 74.675 76.185 1.885 13.9 43.0 43.15 0.471 80.3 19.7
16.0 83.659 76.185 1.875 13.8 42.9 43.3 0.4785 80.05 19.95
16.0 92.644 76.185 2.03 13.75 43.2 43.1 0.479 80.0 20.0
16.0 101.63 76.185 2.075 14.1 42.5 43.4 0.469 80.1 19.9
16.0 110.613 76.185 2.16 14.3 42.3 43.45 0.467 80.1 19.9
16.0 119.596 76.185 2.255 14.3 42.35 43.4 0.4685 80.05 19.95
16.0 128.581 76.185 2.3 14.45 42.25 43.3 0.4625 80.1 19.9
16.0 137.564 76.185 2.33 14.8 42.0 43.25 0.4625 80.05 19.95
16.0 146.548 76.185 2.37 15.1 41.85 43.1 0.4625 80.0 20.0
16.0 155.534 76.185 2.405 15.2 41.7 43.0 0.46 80.05 19.95
16.0 164.519 76.185 2.415 15.4 41.55 43.0 0.458 80.05 19.95
16.0 173.502 76.185 2.42 15.65 41.55 42.85 0.4575 80.05 19.95
16.0 182.487 76.185 2.34 16.1 40.7 43.25 0.447 80.2 19.8
17.0 63.724 60.352 1.77 11.75 44.2 44.1 0.4785 80.25 19.75
17.0 72.706 60.352 1.835 11.65 43.95 44.4 0.475 80.2 19.8
17.0 81.689 60.352 1.905 11.7 44.05 44.25 0.478 80.15 19.85
17.0 90.673 60.352 1.98 11.5 44.15 44.3 0.4815 80.1 19.9
17.0 99.655 60.352 2.025 11.9 43.75 44.35 0.4795 80.05 19.95
17.0 108.636 60.352 2.075 11.95 43.55 44.5 0.4695 80.15 19.85
17.0 117.621 60.352 2.15 12.1 43.25 44.6 0.4635 80.1 19.9
17.0 126.603 60.352 2.23 12.2 43.35 44.5 0.4675 80.2 19.8
17.0 135.588 60.352 2.27 12.5 43.2 44.25 0.4615 80.0 20.0
17.0 144.569 60.352 2.325 12.55 43.2 44.25 0.464 80.05 19.95
17.0 153.552 60.352 2.335 12.75 42.9 44.35 0.4605 80.1 19.9
17.0 162.534 60.352 2.355 12.95 42.8 44.25 0.461 80.0 20.0
17.0 171.517 60.352 2.37 13.2 42.7 44.1 0.4645 80.0 20.0
17.0 180.5 60.352 2.275 13.65 41.9 44.5 0.4495 80.2 19.8
17.0 183.495 60.352 2.25 13.7 41.7 44.5 0.445 80.25 19.75