File: data/axis_raman.txt
36.9582
37.5875
38.2146
38.8417
39.4709
40.0978
40.7269
41.3538
41.9807
42.6096
43.2364
43.8652
44.4919
45.1186
45.7473
46.3739
47.0004
47.629
48.2554
48.8818
49.5103
50.1366
50.7629
51.3891
52.0174
52.6435
53.2696
53.8978
54.5238
55.1498
55.7757
56.4038
57.0296
57.6554
58.2812
58.9069
59.5347
60.1604
60.7859
61.4115
62.037
62.6625
63.29
63.9154
64.5408
65.1661
65.7913
66.4165
67.0417
67.6668
68.2941
68.9191
69.5441
70.1691
70.794
71.4189
72.0438
72.6685
73.2933
73.918
74.5427
75.1673
75.7919
76.4165
77.041
77.6654
78.2899
78.9143
79.5386
80.1629
80.7871
81.4114
82.0355
82.6597
83.2838
83.9078
84.5318
85.1558
85.7776
86.4015
87.0253
87.6491
88.2729
88.8966
89.5202
90.1439
90.7653
91.3889
92.0124
92.6359
93.2593
93.8827
94.5039
95.1272
95.7504
96.3737
96.9947
97.6178
98.2409
98.864
99.4849
100.108
100.731
101.354
101.974
102.597
103.22
103.841
104.463
105.086
105.708
106.329
106.951
107.572
108.194
108.817
109.437
110.059
110.681
111.301
111.924
112.544
113.166
113.788
114.408
115.03
115.649
116.271
116.891
117.513
118.132
118.754
119.376
119.995
120.617
121.236
121.858
122.477
123.097
123.718
124.337
124.959
125.578
126.199
126.818
127.439
128.058
128.677
129.298
129.917
130.538
131.157
131.775
132.396
133.015
133.633
134.254
134.873
135.491
136.112
136.73
137.349
137.969
138.587
139.206
139.824
140.444
141.062
141.68
142.3
142.918
143.536
144.154
144.772
145.392
146.01
146.628
147.245
147.863
148.483
149.1
149.718
150.335
150.953
151.57
152.19
152.807
153.424
154.042
154.659
155.276
155.893
156.51
157.127
157.744
158.361
158.98
159.597
160.214
160.831
161.448
162.064
162.681
163.298
163.914
164.531
165.147
165.764
166.38
166.997
167.613
168.227
168.844
169.46
170.076
170.692
171.308
171.924
172.54
173.156
173.772
174.388
175.002
175.618
176.234
176.849
177.465
178.081
178.694
179.31
179.925
180.541
181.156
181.77
182.385
183
183.616
184.229
184.844
185.459
186.074
186.687
187.302
187.917
188.532
189.145
189.76
190.375
190.988
191.603
192.217
192.83
193.444
194.059
194.672
195.286
195.898
196.513
197.127
197.74
198.354
198.966
199.58
200.192
200.807
201.421
202.033
202.647
203.259
203.873
204.484
205.098
205.71
206.324
206.935
207.549
208.161
208.774
209.386
209.997
210.611
211.222
211.836
212.447
213.06
213.672
214.283
214.896
215.507
216.12
216.731
217.342
217.955
218.566
219.177
219.79
220.401
221.011
221.624
222.235
222.845
223.456
224.069
224.679
225.289
225.9
226.512
227.123
227.733
228.343
228.956
229.566
230.176
230.786
231.396
232.008
232.618
233.228
233.838
234.448
235.057
235.667
236.279
236.889
237.498
238.108
238.718
239.327
239.937
240.546
241.155
241.765
242.374
242.983
243.595
244.204
244.813
245.422
246.031
246.64
247.249
247.858
248.467
249.074
249.683
250.292
250.9
251.509
252.118
252.726
253.335
253.944
254.552
255.161
255.769
256.377
256.984
257.592
258.2
258.809
259.417
260.025
260.631
261.239
261.847
262.455
263.063
263.669
264.277
264.885
265.492
266.1
266.706
267.313
267.921
268.527
269.134
269.742
270.349
270.955
271.562
272.169
272.775
273.382
273.989
274.594
275.201
275.808
276.413
277.021
277.625
278.232
278.839
279.444
280.051
280.656
281.262
281.869
282.474
283.08
283.685
284.292
284.896
285.502
286.107
286.713
287.318
287.924
288.528
289.134
289.738
290.345
290.949
291.555
292.159
292.763
293.369
293.972
294.578
295.182
295.786
296.392
296.995
297.599
298.205
298.808
299.414
300.017
300.621
301.224
301.829
302.433
303.036
303.641
304.244
304.848
305.451
306.056
306.659
307.262
307.865
308.47
309.073
309.675
310.278
310.883
311.486
312.088
312.691
313.294
313.896
314.501
315.103
315.706
316.308
316.91
317.513
318.115
318.717
319.319
319.924
320.526
321.128
321.73
322.332
322.934
323.536
324.138
324.739
325.341
325.943
326.545
327.146
327.748
328.35
328.951
329.553
330.154
330.756
331.357
331.956
332.558
333.159
333.76
334.362
334.963
335.564
336.165
336.766
337.365
337.966
338.567
339.168
339.769
340.369
340.968
341.569
342.17
342.77
343.371
343.969
344.57
345.17
345.771
346.369
346.97
347.57
348.17
348.769
349.369
349.969
350.567
351.167
351.767
352.365
352.965
353.565
354.163
354.763
355.361
355.961
356.56
357.158
357.758
358.355
358.955
359.554
360.152
360.751
361.349
361.948
362.545
363.145
363.742
364.341
364.938
365.538
366.135
366.734
367.331
367.93
368.527
369.126
369.723
370.321
370.918
371.515
372.114
372.71
373.309
373.906
374.502
375.101
375.697
376.294
376.892
377.488
378.085
378.683
379.279
379.875
380.474
381.07
381.666
382.262
382.86
383.456
384.052
384.648
385.245
385.841
386.437
387.033
387.63
388.226
388.822
389.417
390.013
390.608
391.206
391.801
392.397
392.992
393.587
394.182
394.778
395.373
395.968
396.565
397.16
397.755
398.35
398.945
399.54
400.135
400.73
401.325
401.919
402.514
403.109
403.703
404.298
404.893
405.487
406.082
406.676
407.271
407.865
408.459
409.051
409.646
410.24
410.834
411.428
412.022
412.616
413.21
413.804
414.396
414.99
415.584
416.178
416.772
417.363
417.957
418.551
419.144
419.738
420.33
420.923
421.517
422.11
422.701
423.295
423.888
424.479
425.073
425.666
426.259
426.85
427.443
428.036
428.627
429.22
429.813
430.404
430.997
431.588
432.181
432.773
433.364
433.957
434.547
435.14
435.73
436.323
436.915
437.506
438.098
438.689
439.281
439.871
440.463
441.054
441.646
442.236
442.828
443.418
444.008
444.6
445.19
445.782
446.372
446.963
447.553
448.143
448.735
449.324
449.914
450.506
451.095
451.685
452.276
452.865
453.455
454.046
454.636
455.225
455.816
456.405
456.994
457.584
458.175
458.764
459.353
459.942
460.533
461.121
461.71
462.299
462.888
463.479
464.067
464.656
465.245
465.833
466.422
467.012
467.601
468.189
468.778
469.366
469.954
470.543
471.131
471.719
472.307
472.895
473.483
474.071
474.661
475.249
475.837
476.425
477.013
477.601
478.189
478.775
479.362
479.95
480.538
481.125
481.713
482.3
482.888
483.475
484.063
484.65
485.237
485.823
486.41
486.997
487.584
488.171
488.758
489.345
489.93
490.517
491.104
491.691
492.278
492.863
493.45
494.037
494.623
495.208
495.795
496.381
496.968
497.552
498.139
498.725
499.31
499.896
500.482
501.067
501.653
502.239
502.823
503.41
503.994
504.58
505.166
505.75
506.336
506.92
507.506
508.091
508.675
509.261
509.845
510.431
511.014
511.6
512.183
512.769
513.352
513.938
514.521
515.107
515.69
516.275
516.859
517.442
518.027
518.61
519.195
519.779
520.364
520.947
521.53
522.115
522.698
523.28
523.865
524.448
525.031
525.615
526.198
526.781
527.365
527.948
528.531
529.113
529.698
530.28
530.862
531.445
532.029
532.611
533.193
533.776
534.358
534.942
535.524
536.106
536.688
537.27
537.852
538.436
539.018
539.6
540.181
540.763
541.345
541.926
542.508
543.09
543.671
544.253
544.834
545.416
545.999
546.581
547.162
547.743
548.324
548.906
549.487
550.066
550.647
551.228
551.809
552.39
552.971
553.552
554.133
554.714
555.295
555.875
556.456
557.035
557.615
558.196
558.777
559.357
559.938
560.518
561.097
561.677
562.258
562.838
563.416
563.996
564.577
565.157
565.737
566.315
566.895
567.475
568.053
568.633
569.213
569.791
570.371
570.951
571.528
572.108
572.688
573.265
573.845
574.425
575.002
575.582
576.159
576.739
577.318
577.895
578.475
579.052
579.631
580.209
580.788
581.365
581.944
582.521
583.1
583.677
584.256
584.833
585.412
585.989
586.568
587.144
587.723
588.3
588.876
589.455
590.032
590.61
591.187
591.763
592.342
592.918
593.494
594.073
594.649
595.225
595.804
596.38
596.956
597.534
598.11
598.686
599.262
599.84
600.416
600.992
601.568
602.146
602.721
603.297
603.873
604.449
605.024
605.602
606.177
606.753
607.328
607.904
608.479
609.055
609.632
610.207
610.783
611.358
611.933
612.508
613.083
613.658
614.233
614.808
615.383
615.958
616.533
617.108
617.683
618.258
618.833
619.407
619.982
620.557
621.131
621.706
622.28
622.855
623.429
624.002
624.576
625.151
625.725
626.299
626.873
627.448
628.02
628.594
629.168
629.742
630.316
630.89
631.462
632.036
632.61
633.184
633.756
634.329
634.903
635.477
636.048
636.622
637.196
637.767
638.341
638.914
639.486
640.059
640.633
641.204
641.777
642.35
642.922
643.495
644.066
644.639
645.212
645.783
646.356
646.927
647.5
648.071
648.644
649.215
649.788
650.358