File: data/x_raman.txt
36.5942
37.2235
37.8506
38.4777
39.1069
39.7338
40.3629
40.9898
41.6167
42.2456
42.8724
43.5012
44.1279
44.7546
45.3833
46.0099
46.6364
47.265
47.8914
48.5178
49.1463
49.7726
50.3989
51.0251
51.6534
52.2795
52.9056
53.5338
54.1598
54.7858
55.4117
56.0398
56.6656
57.2914
57.9172
58.5429
59.1707
59.7964
60.4219
61.0475
61.673
62.2985
62.926
63.5514
64.1768
64.8021
65.4273
66.0525
66.6777
67.3028
67.9301
68.5551
69.1801
69.8051
70.43
71.0549
71.6798
72.3045
72.9293
73.554
74.1787
74.8033
75.4279
76.0525
76.677
77.3014
77.9259
78.5503
79.1746
79.7989
80.4231
81.0474
81.6715
82.2957
82.9198
83.5438
84.1678
84.7918
85.4136
86.0375
86.6613
87.2851
87.9089
88.5326
89.1562
89.7799
90.4013
91.0249
91.6484
92.2719
92.8953
93.5187
94.1399
94.7632
95.3864
96.0097
96.6307
97.2538
97.8769
98.5
99.1209
99.744
100.367
100.99
101.61
102.233
102.856
103.477
104.099
104.722
105.344
105.965
106.587
107.208
107.83
108.453
109.073
109.695
110.317
110.937
111.56
112.18
112.802
113.424
114.044
114.666
115.285
115.907
116.527
117.149
117.768
118.39
119.012
119.631
120.253
120.872
121.494
122.113
122.733
123.354
123.973
124.595
125.214
125.835
126.454
127.075
127.694
128.313
128.934
129.553
130.174
130.793
131.411
132.032
132.651
133.269
133.89
134.509
135.127
135.748
136.366
136.985
137.605
138.223
138.842
139.46
140.08
140.698
141.316
141.936
142.554
143.172
143.79
144.408
145.028
145.646
146.264
146.881
147.499
148.119
148.736
149.354
149.971
150.589
151.206
151.826
152.443
153.06
153.678
154.295
154.912
155.529
156.146
156.763
157.38
157.997
158.616
159.233
159.85
160.467
161.084
161.7
162.317
162.934
163.55
164.167
164.783
165.4
166.016
166.633
167.249
167.863
168.48
169.096
169.712
170.328
170.944
171.56
172.176
172.792
173.408
174.024
174.638
175.254
175.87
176.485
177.101
177.717
178.33
178.946
179.561
180.177
180.792
181.406
182.021
182.636
183.252
183.865
184.48
185.095
185.71
186.323
186.938
187.553
188.168
188.781
189.396
190.011
190.624
191.239
191.853
192.466
193.08
193.695
194.308
194.922
195.534
196.149
196.763
197.376
197.99
198.602
199.216
199.828
200.443
201.057
201.669
202.283
202.895
203.509
204.12
204.734
205.346
205.96
206.571
207.185
207.797
208.41
209.022
209.633
210.247
210.858
211.472
212.083
212.696
213.308
213.919
214.532
215.143
215.756
216.367
216.978
217.591
218.202
218.813
219.426
220.037
220.647
221.26
221.871
222.481
223.092
223.705
224.315
224.925
225.536
226.148
226.759
227.369
227.979
228.592
229.202
229.812
230.422
231.032
231.644
232.254
232.864
233.474
234.084
234.693
235.303
235.915
236.525
237.134
237.744
238.354
238.963
239.573
240.182
240.791
241.401
242.01
242.619
243.231
243.84
244.449
245.058
245.667
246.276
246.885
247.494
248.103
248.71
249.319
249.928
250.536
251.145
251.754
252.362
252.971
253.58
254.188
254.797
255.405
256.013
256.62
257.228
257.836
258.445
259.053
259.661
260.267
260.875
261.483
262.091
262.699
263.305
263.913
264.521
265.128
265.736
266.342
266.949
267.557
268.163
268.77
269.378
269.985
270.591
271.198
271.805
272.411
273.018
273.625
274.23
274.837
275.444
276.049
276.657
277.261
277.868
278.475
279.08
279.687
280.292
280.898
281.505
282.11
282.716
283.321
283.928
284.532
285.138
285.743
286.349
286.954
287.56
288.164
288.77
289.374
289.981
290.585
291.191
291.795
292.399
293.005
293.608
294.214
294.818
295.422
296.028
296.631
297.235
297.841
298.444
299.05
299.653
300.257
300.86
301.465
302.069
302.672
303.277
303.88
304.484
305.087
305.692
306.295
306.898
307.501
308.106
308.709
309.311
309.914
310.519
311.122
311.724
312.327
312.93
313.532
314.137
314.739
315.342
315.944
316.546
317.149
317.751
318.353
318.955
319.56
320.162
320.764
321.366
321.968
322.57
323.172
323.774
324.375
324.977
325.579
326.181
326.782
327.384
327.986
328.587
329.189
329.79
330.392
330.993
331.592
332.194
332.795
333.396
333.998
334.599
335.2
335.801
336.402
337.001
337.602
338.203
338.804
339.405
340.005
340.604
341.205
341.806
342.406
343.007
343.605
344.206
344.806
345.407
346.005
346.606
347.206
347.806
348.405
349.005
349.605
350.203
350.803
351.403
352.001
352.601
353.201
353.799
354.399
354.997
355.597
356.196
356.794
357.394
357.991
358.591
359.19
359.788
360.387
360.985
361.584
362.181
362.781
363.378
363.977
364.574
365.174
365.771
366.37
366.967
367.566
368.163
368.762
369.359
369.957
370.554
371.151
371.75
372.346
372.945
373.542
374.138
374.737
375.333
375.93
376.528
377.124
377.721
378.319
378.915
379.511
380.11
380.706
381.302
381.898
382.496
383.092
383.688
384.284
384.881
385.477
386.073
386.669
387.266
387.862
388.458
389.053
389.649
390.244
390.842
391.437
392.033
392.628
393.223
393.818
394.414
395.009
395.604
396.201
396.796
397.391
397.986
398.581
399.176
399.771
400.366
400.961
401.555
402.15
402.745
403.339
403.934
404.529
405.123
405.718
406.312
406.907
407.501
408.095
408.687
409.282
409.876
410.47
411.064
411.658
412.252
412.846
413.44
414.032
414.626
415.22
415.814
416.408
416.999
417.593
418.187
418.78
419.374
419.966
420.559
421.153
421.746
422.337
422.931
423.524
424.115
424.709
425.302
425.895
426.486
427.079
427.672
428.263
428.856
429.449
430.04
430.633
431.224
431.817
432.409
433
433.593
434.183
434.776
435.366
435.959
436.551
437.142
437.734
438.325
438.917
439.507
440.099
440.69
441.282
441.872
442.464
443.054
443.644
444.236
444.826
445.418
446.008
446.599
447.189
447.779
448.371
448.96
449.55
450.142
450.731
451.321
451.912
452.501
453.091
453.682
454.272
454.861
455.452
456.041
456.63
457.22
457.811
458.4
458.989
459.578
460.169
460.757
461.346
461.935
462.524
463.115
463.703
464.292
464.881
465.469
466.058
466.648
467.237
467.825
468.414
469.002
469.59
470.179
470.767
471.355
471.943
472.531
473.119
473.707
474.297
474.885
475.473
476.061
476.649
477.237
477.825
478.411
478.998
479.586
480.174
480.761
481.349
481.936
482.524
483.111
483.699
484.286
484.873
485.459
486.046
486.633
487.22
487.807
488.394
488.981
489.566
490.153
490.74
491.327
491.914
492.499
493.086
493.673
494.259
494.844
495.431
496.017
496.604
497.188
497.775
498.361
498.946
499.532
500.118
500.703
501.289
501.875
502.459
503.046
503.63
504.216
504.802
505.386
505.972
506.556
507.142
507.727
508.311
508.897
509.481
510.067
510.65
511.236
511.819
512.405
512.988
513.574
514.157
514.743
515.326
515.911
516.495
517.078
517.663
518.246
518.831
519.415
520.0
520.583
521.166
521.751
522.334
522.916
523.501
524.084
524.667
525.251
525.834
526.417
527.001
527.584
528.167
528.749
529.334
529.916
530.498
531.081
531.665
532.247
532.829
533.412
533.994
534.578
535.16
535.742
536.324
536.906
537.488
538.072
538.654
539.236
539.817
540.399
540.981
541.562
542.144
542.726
543.307
543.889
544.47
545.052
545.635
546.217
546.798
547.379
547.96
548.542
549.123
549.702
550.283
550.864
551.445
552.026
552.607
553.188
553.769
554.35
554.931
555.511
556.092
556.671
557.251
557.832
558.413
558.993
559.574
560.154
560.733
561.313
561.894
562.474
563.052
563.632
564.213
564.793
565.373
565.951
566.531
567.111
567.689
568.269
568.849
569.427
570.007
570.587
571.164
571.744
572.324
572.901
573.481
574.061
574.638
575.218
575.795
576.375
576.954
577.531
578.111
578.688
579.267
579.845
580.424
581.001
581.58
582.157
582.736
583.313
583.892
584.469
585.048
585.625
586.204
586.78
587.359
587.936
588.512
589.091
589.668
590.246
590.823
591.399
591.978
592.554
593.13
593.709
594.285
594.861
595.44
596.016
596.592
597.17
597.746
598.322
598.898
599.476
600.052
600.628
601.204
601.782
602.357
602.933
603.509
604.085
604.66
605.238
605.813
606.389
606.964
607.54
608.115
608.691
609.268
609.843
610.419
610.994
611.569
612.144
612.719
613.294
613.869
614.444
615.019
615.594
616.169
616.744
617.319
617.894
618.469
619.043
619.618
620.193
620.767
621.342
621.916
622.491
623.065
623.638
624.212
624.787
625.361
625.935
626.509
627.084
627.656
628.23
628.804
629.378
629.952
630.526
631.098
631.672
632.246
632.82
633.392
633.965
634.539
635.113
635.684
636.258
636.832
637.403
637.977
638.55
639.122
639.695
640.269
640.84
641.413
641.986
642.558
643.131
643.702
644.275
644.848
645.419
645.992
646.563
647.136
647.707
648.28
648.851
649.424
649.994